Folder: python/data_files

Note: data_files/basic22.txt
ID x_value y_value class direction
123 1 1 A right
112 2 4 B left
213 3 9 B left
111 4 15 A left
211 5 28 A right
555 6 40 B right
589 7 53 A right
687 8 72 A left
861 9 78 A right
999 10 99 B left

File: transmittance.csv
Wavelength (nm),Transmittance ITO (%),Transmittance CdS (%),Transmittance Si (%),Transmittance GaAs (%)
300,0.098,0.084,-0.003,0.075
304,0.104,0.088,0.002,0.077
308,0.099,0.09,-0.002,0.077
312,0.105,0.085,0,0.068
316,0.121,0.091,0,0.079
320,0.16,0.092,0,0.076
324,0.245,0.101,0,0.075
328,0.39,0.09,0,0.076
332,0.677,0.09,-0.001,0.074
336,1.117,0.093,0,0.076
340,1.841,0.097,0,0.078
344,2.792,0.091,0.001,0.077
348,4.086,0.094,0.001,0.078
352,5.715,0.094,0.001,0.08
356,7.602,0.095,0,0.082
360,9.825,0.094,-0.001,0.083
364,12.392,0.094,0,0.084
368,15.38,0.093,0,0.089
372,18.741,0.096,0,0.087
376,22.23,0.096,0,0.095
380,25.371,0.096,0,0.102
384,28.155,0.095,0,0.106
388,30.754,0.097,0,0.111
392,33.547,0.097,0,0.112
396,37.139,0.096,0,0.113
400,41.581,0.096,-0.001,0.118
404,46.271,0.096,0,0.119
408,50.75,0.098,-0.001,0.123
412,53.949,0.095,0,0.125
416,55.306,0.096,-0.001,0.127
420,55.817,0.099,0,0.129
424,55.892,0.099,0,0.136
428,56.221,0.097,0,0.138
432,57.48,0.096,0,0.139
436,59.931,0.097,0,0.144
440,63.327,0.097,0,0.145
444,67.433,0.097,0,0.149
448,71.875,0.096,-0.001,0.15
452,75.636,0.097,0,0.154
456,78.149,0.097,0,0.153
460,79.041,0.095,0,0.16
464,78.449,0.097,0,0.161
468,76.902,0.098,-0.001,0.165
472,74.927,0.099,-0.001,0.165
476,73.083,0.096,-0.001,0.167
480,71.981,0.098,-0.001,0.168
484,71.516,0.096,-0.001,0.17
488,71.981,0.097,0,0.17
492,73.343,0.095,0,0.172
496,75.323,0.098,-0.001,0.172
500,77.98,0.098,0,0.175
504,80.934,0.156,0,0.174
508,83.956,0.722,-0.001,0.177
512,86.639,3.223,0,0.179
516,88.753,8.618,0,0.177
520,89.873,16.267,0,0.179
524,90.089,25.12,0,0.178
528,89.41,30.358,0,0.178
532,87.9,37.142,0,0.181
536,86.011,46.721,0,0.179
540,83.751,47.974,0,0.181
544,81.557,46.831,0,0.182
548,79.749,53.726,-0.001,0.182
552,78.12,63.322,0,0.182
556,77.088,62.558,-0.001,0.183
560,76.401,56.306,-0.001,0.184
564,76.229,56.91,0,0.186
568,76.444,66.147,0,0.183
572,77.094,74.597,-0.001,0.186
576,78.109,71.975,0,0.185
580,79.344,63.605,0,0.185
584,80.938,60.454,-0.001,0.186
588,82.502,65.374,0,0.185
592,84.302,75.288,-0.001,0.184
596,85.974,81.533,0,0.185
600,87.5,77.623,-0.001,0.188
604,88.65,68.82,-0.001,0.188
608,89.704,63.477,-0.001,0.188
612,90.219,64.772,-0.001,0.189
616,90.397,72.073,0,0.188
620,90.181,81.223,0,0.189
624,89.603,85.219,-0.001,0.189
628,88.638,80.481,-0.001,0.191
632,87.593,72.118,0,0.19
636,86.242,66.069,-0.001,0.19
640,84.776,64.988,0,0.192
644,83.388,69.026,-0.001,0.19
648,82.151,76.764,-0.001,0.191
652,80.877,84.557,0,0.191
656,79.69,87.364,0,0.195
660,78.844,83.399,-0.001,0.193
664,78.098,75.676,-0.001,0.194
668,77.531,69.136,0,0.195
672,77.073,66.011,-0.001,0.195
676,76.827,66.862,0,0.193
680,76.91,71.465,-0.001,0.196
684,77.066,78.405,0,0.195
688,77.368,85.351,0,0.195
692,77.979,88.922,-0.001,0.196
696,78.735,86.936,-0.001,0.196
700,79.482,81.017,0,0.198
704,80.372,74.165,-0.001,0.198
708,81.257,69.056,0,0.201
712,82.397,66.803,0,0.2
716,83.556,67.45,0,0.2
720,84.805,70.948,0,0.201
724,85.902,76.627,-0.001,0.2
728,86.934,82.964,0,0.204
732,88.067,88.157,0,0.202
736,89.106,89.898,-0.001,0.202
740,90.015,87.502,0,0.203
744,90.814,82.307,-0.001,0.204
748,91.273,76.169,-0.001,0.205
752,91.764,71.229,-0.001,0.204
756,91.987,68.112,0,0.205
760,92.111,67.29,0,0.208
764,92.033,68.517,-0.001,0.206
768,91.867,71.745,0,0.207
772,91.512,76.625,0,0.207
776,91.135,82.051,-0.001,0.209
780,90.486,87.114,-0.001,0.209
784,89.821,90.207,-0.001,0.207
788,89.003,90.365,-0.001,0.206
792,88.251,87.299,-0.001,0.212
796,87.358,82.636,-0.001,0.211
800,86.432,77.569,-0.001,0.21
804,85.735,72.931,-0.001,0.213
808,84.77,69.741,-0.001,0.214
812,83.77,68.007,-0.001,0.213
816,82.925,67.627,-0.001,0.21
820,82.118,69.128,-0.001,0.219
824,81.64,72.005,-0.001,0.219
828,80.949,75.818,0.001,0.214
832,80.301,80.437,0.398,0.39
836,79.536,84.917,0.301,0.375
840,79.105,88.764,0.306,0.479
844,78.772,90.577,0.213,0.501
848,78.59,90.4,0.33,0.424
852,78.273,88.072,0.224,0.388
856,78.131,84.542,0.303,0.277
860,77.884,80.062,0.215,0.489
864,77.9,75.976,0.363,0.389
868,77.819,72.28,0.096,0.449
872,77.877,69.813,0.187,0.338
876,78.276,68.544,0.257,0.419
880,78.312,68.033,0.142,0.396
884,78.639,68.772,0.261,0.512
888,78.913,70.479,0.247,0.798
892,79.084,73.012,0.261,1.674
896,79.54,76.422,0.197,3.246
900,80.033,80.398,0.224,5.533
904,80.513,84.303,0.133,7.785
908,81.117,87.771,0.157,9.782
912,81.713,90.275,0.182,10.982
916,82.22,91.26,0.192,11.907
920,82.846,90.753,0.16,13.056
924,83.297,88.751,0.11,14.397
928,83.861,85.751,0.151,15.323
932,84.618,82.307,0.159,15.804
936,85.307,78.693,0.136,16.07
940,85.839,75.466,0.1,16.384
944,86.474,72.614,0.16,16.663
948,87.097,70.406,0.114,16.858
952,87.618,68.86,0.141,17.064
956,88.129,68.282,0.151,17.27
960,88.58,68.377,0.17,17.404
964,89.003,69.282,0.242,17.506
968,89.529,70.898,0.337,17.509
972,89.922,73.089,0.335,17.503
976,90.357,75.631,0.459,17.551
980,90.636,78.58,0.583,17.487
984,90.839,81.837,0.723,17.559
988,90.99,84.934,0.951,17.511
992,91.096,87.784,1.336,17.552
996,91.209,90.051,1.631,17.605
1000,91.285,91.397,1.984,17.662
1004,91.397,91.684,2.54,17.726
1008,91.46,90.809,3.157,17.732
1012,91.349,89.016,3.822,17.784
1016,91.155,86.512,4.691,17.779
1020,90.995,83.632,5.64,17.84
1024,90.691,80.493,6.76,17.765
1028,90.471,77.6,7.986,17.824
1032,90.062,74.812,9.367,17.718
1036,89.823,72.771,10.809,17.729
1040,89.496,71.03,12.384,17.621
1044,89.248,69.762,14.017,17.602
1048,88.924,69.066,15.669,17.614
1052,88.532,68.721,17.375,17.59
1056,88.059,68.765,19.041,17.614
1060,87.55,69.24,20.823,17.589
1064,87.082,70.192,22.32,17.614
1068,86.435,71.717,23.435,17.632
1072,86.076,73.604,24.438,17.619
1076,85.703,76.119,25.527,17.664
1080,85.341,78.659,26.425,17.634
1084,85,81.418,27.264,17.627
1088,84.579,84.097,28.083,17.592
1092,84.178,86.498,28.864,17.562
1096,83.685,88.55,29.565,17.547
1100,83.271,90.261,30.293,17.498
1104,82.715,91.252,30.904,17.462
1108,82.192,91.65,31.529,17.406
1112,81.808,91.412,32.12,17.382
1116,81.447,90.482,32.582,17.393
1120,81.114,89.045,33.141,17.369
1124,80.891,87.136,33.59,17.278
1128,80.709,85.042,34.021,17.26
1132,80.442,82.824,34.481,17.289
1136,80.207,80.571,34.936,17.238
1140,79.99,78.331,35.32,17.275
1144,79.599,76.101,35.703,17.271
1148,79.366,74.076,36.119,17.234
1152,78.982,72.264,36.475,17.243
1156,78.719,70.762,36.76,17.193
1160,78.377,69.547,37.096,17.199
1164,78.26,68.805,37.445,17.148
1168,78.251,68.527,37.73,17.142
1172,78.229,68.614,38.113,17.107
1176,78.186,68.991,38.493,17.094
1180,78.158,69.606,38.782,17.027
1184,78.262,70.616,38.865,17.007
1188,78.216,71.7,38.902,16.975
1192,78.113,73.017,39.017,16.884
1196,77.975,74.437,39.024,16.88
1200,77.857,75.969,38.971,16.852
1204,77.692,77.778,38.978,16.742
1208,77.744,79.705,39.075,16.772
1212,77.806,81.752,39.114,16.753
1216,77.815,83.874,39.13,16.687
1220,77.859,85.971,39.117,16.643
1224,78.118,87.961,39.13,16.685
1228,78.42,89.552,39.07,16.64
1232,78.431,90.762,39.087,16.604
1236,78.6,91.689,39.064,16.614
1240,78.808,91.984,39.075,16.637
1244,78.931,91.971,39.049,16.567
1248,79.159,91.501,39.074,16.578
1252,79.208,90.707,39.095,16.584
1256,79.436,89.548,39.009,16.488
1260,79.577,88.02,39.075,16.515
1264,79.789,86.274,38.974,16.431
1268,79.803,84.348,38.985,16.395
1272,80.035,82.436,39.036,16.385
1276,80.226,80.666,38.976,16.377
1280,80.577,78.829,39.101,16.307
1284,80.821,77.056,39.025,16.368
1288,81.004,75.488,38.992,16.272
1292,81.336,74.103,39.115,16.338
1296,81.643,72.753,39.084,16.308
1300,81.903,71.772,39.073,16.165
1304,82.231,70.865,39.132,16.241
1308,82.49,70.07,39.09,16.148
1312,82.877,69.579,39.233,16.148
1316,83.084,69.194,39.217,16.228
1320,83.399,69.061,39.201,16.226
1324,83.709,68.969,39.26,16.175
1328,83.869,69.109,39.227,16.083
1332,83.988,69.474,39.287,16.136
1336,84.233,70.018,39.361,16.055
1340,84.384,70.644,39.234,16.167
1344,84.484,71.531,39.353,16.089
1348,84.841,72.591,39.433,16.17
1352,85.011,73.62,39.396,16.065
1356,85.329,74.968,39.411,16.116
1360,85.664,76.33,39.376,16.038
1364,85.939,77.94,39.422,16.029
1368,86.264,79.568,39.49,16.11
1372,86.575,81.244,39.637,16.098
1376,86.755,82.668,39.551,15.971
1380,87.167,84.346,39.654,15.972
1384,87.153,85.512,39.656,16.041
1388,87.365,87.254,39.557,15.966
1392,87.58,88.505,39.794,15.904
1396,87.495,89.758,39.811,16.051
1400,87.704,90.71,40.113,15.97